File: Lab/XRD/20170407/cu2o_002_after_ilum-4-1217-1.txt
Angle Intensity Error
10.000 234.000 1.000
10.060 236.000 1.000
10.120 239.000 1.000
10.180 253.000 1.000
10.240 228.000 1.000
10.300 248.000 1.000
10.360 243.000 1.000
10.420 249.000 1.000
10.480 240.000 1.000
10.540 222.000 1.000
10.600 231.000 1.000
10.660 238.000 1.000
10.720 253.000 1.000
10.780 240.000 1.000
10.840 228.000 1.000
10.900 224.000 1.000
10.960 245.000 1.000
11.020 245.000 1.000
11.080 232.000 1.000
11.140 237.000 1.000
11.200 260.000 1.000
11.260 234.000 1.000
11.320 255.000 1.000
11.380 235.000 1.000
11.440 252.000 1.000
11.500 248.000 1.000
11.560 245.000 1.000
11.620 267.000 1.000
11.680 235.000 1.000
11.740 245.000 1.000
11.800 242.000 1.000
11.860 255.000 1.000
11.920 244.000 1.000
11.980 219.000 1.000
12.040 242.000 1.000
12.100 234.000 1.000
12.160 232.000 1.000
12.220 230.000 1.000
12.280 241.000 1.000
12.340 248.000 1.000
12.400 228.000 1.000
12.460 245.000 1.000
12.520 243.000 1.000
12.580 249.000 1.000
12.640 259.000 1.000
12.700 248.000 1.000
12.760 233.000 1.000
12.820 270.000 1.000
12.880 238.000 1.000
12.940 244.000 1.000
13.000 242.000 1.000
13.060 232.000 1.000
13.120 237.000 1.000
13.180 257.000 1.000
13.240 249.000 1.000
13.300 232.000 1.000
13.360 250.000 1.000
13.420 262.000 1.000
13.480 248.000 1.000
13.540 231.000 1.000
13.600 263.000 1.000
13.660 247.000 1.000
13.720 250.000 1.000
13.780 247.000 1.000
13.840 233.000 1.000
13.900 248.000 1.000
13.960 248.000 1.000
14.020 260.000 1.000
14.080 244.000 1.000
14.140 247.000 1.000
14.200 256.000 1.000
14.260 256.000 1.000
14.320 255.000 1.000
14.380 261.000 1.000
14.440 265.000 1.000
14.500 243.000 1.000
14.560 273.000 1.000
14.620 271.000 1.000
14.680 259.000 1.000
14.740 281.000 1.000
14.800 265.000 1.000
14.860 255.000 1.000
14.920 268.000 1.000
14.980 272.000 1.000
15.040 283.000 1.000
15.100 250.000 1.000
15.160 269.000 1.000
15.220 276.000 1.000
15.280 271.000 1.000
15.340 275.000 1.000
15.400 254.000 1.000
15.460 283.000 1.000
15.520 276.000 1.000
15.580 278.000 1.000
15.640 272.000 1.000
15.700 287.000 1.000
15.760 276.000 1.000
15.820 288.000 1.000
15.880 295.000 1.000
15.940 281.000 1.000
16.000 281.000 1.000
16.060 308.000 1.000
16.120 301.000 1.000
16.180 284.000 1.000
16.240 275.000 1.000
16.300 307.000 1.000
16.360 285.000 1.000
16.420 320.000 1.000
16.480 290.000 1.000
16.540 300.000 1.000
16.600 308.000 1.000
16.660 301.000 1.000
16.720 315.000 1.000
16.780 306.000 1.000
16.840 331.000 1.000
16.900 307.000 1.000
16.960 334.000 1.000
17.020 291.000 1.000
17.080 285.000 1.000
17.140 310.000 1.000
17.200 302.000 1.000
17.260 312.000 1.000
17.320 314.000 1.000
17.380 314.000 1.000
17.440 311.000 1.000
17.500 315.000 1.000
17.560 313.000 1.000
17.620 355.000 1.000
17.680 339.000 1.000
17.740 342.000 1.000
17.800 328.000 1.000
17.860 333.000 1.000
17.920 309.000 1.000
17.980 341.000 1.000
18.040 324.000 1.000
18.100 340.000 1.000
18.160 335.000 1.000
18.220 340.000 1.000
18.280 343.000 1.000
18.340 347.000 1.000
18.400 365.000 1.000
18.460 350.000 1.000
18.520 330.000 1.000
18.580 345.000 1.000
18.640 358.000 1.000
18.700 377.000 1.000
18.760 397.000 1.000
18.820 384.000 1.000
18.880 358.000 1.000
18.940 336.000 1.000
19.000 363.000 1.000
19.060 374.000 1.000
19.120 362.000 1.000
19.180 356.000 1.000
19.240 386.000 1.000
19.300 371.000 1.000
19.360 383.000 1.000
19.420 372.000 1.000
19.480 402.000 1.000
19.540 377.000 1.000
19.600 367.000 1.000
19.660 400.000 1.000
19.720 366.000 1.000
19.780 387.000 1.000
19.840 401.000 1.000
19.900 429.000 1.000
19.960 394.000 1.000
20.020 396.000 1.000
20.080 381.000 1.000
20.140 406.000 1.000
20.200 405.000 1.000
20.260 421.000 1.000
20.320 410.000 1.000
20.380 436.000 1.000
20.440 413.000 1.000
20.500 386.000 1.000
20.560 402.000 1.000
20.620 421.000 1.000
20.680 427.000 1.000
20.740 407.000 1.000
20.800 423.000 1.000
20.860 424.000 1.000
20.920 379.000 1.000
20.980 418.000 1.000
21.040 407.000 1.000
21.100 432.000 1.000
21.160 396.000 1.000
21.220 408.000 1.000
21.280 466.000 1.000
21.340 412.000 1.000
21.400 421.000 1.000
21.460 455.000 1.000
21.520 411.000 1.000
21.580 459.000 1.000
21.640 420.000 1.000
21.700 459.000 1.000
21.760 447.000 1.000
21.820 477.000 1.000
21.880 452.000 1.000
21.940 458.000 1.000
22.000 435.000 1.000
22.060 443.000 1.000
22.120 459.000 1.000
22.180 466.000 1.000
22.240 477.000 1.000
22.300 435.000 1.000
22.360 462.000 1.000
22.420 464.000 1.000
22.480 439.000 1.000
22.540 481.000 1.000
22.600 507.000 1.000
22.660 545.000 1.000
22.720 544.000 1.000
22.780 504.000 1.000
22.840 479.000 1.000
22.900 452.000 1.000
22.960 459.000 1.000
23.020 482.000 1.000
23.080 473.000 1.000
23.140 511.000 1.000
23.200 471.000 1.000
23.260 494.000 1.000
23.320 489.000 1.000
23.380 544.000 1.000
23.440 506.000 1.000
23.500 506.000 1.000
23.560 563.000 1.000
23.620 592.000 1.000
23.680 635.000 1.000
23.740 587.000 1.000
23.800 534.000 1.000
23.860 527.000 1.000
23.920 552.000 1.000
23.980 584.000 1.000
24.040 594.000 1.000
24.100 617.000 1.000
24.160 612.000 1.000
24.220 607.000 1.000
24.280 660.000 1.000
24.340 679.000 1.000
24.400 739.000 1.000
24.460 771.000 1.000
24.520 742.000 1.000
24.580 766.000 1.000
24.640 810.000 1.000
24.700 825.000 1.000
24.760 901.000 1.000
24.820 935.000 1.000
24.880 950.000 1.000
24.940 1014.000 1.000
25.000 1076.000 1.000
25.060 1146.000 1.000
25.120 1232.000 1.000
25.180 1324.000 1.000
25.240 1375.000 1.000
25.300 1427.000 1.000
25.360 1518.000 1.000
25.420 1692.000 1.000
25.480 1797.000 1.000
25.540 1950.000 1.000
25.600 2103.000 1.000
25.660 2209.000 1.000
25.720 2358.000 1.000
25.780 2400.000 1.000
25.840 2609.000 1.000
25.900 2690.000 1.000
25.960 2851.000 1.000
26.020 3015.000 1.000
26.080 3079.000 1.000
26.140 3337.000 1.000
26.200 3815.000 1.000
26.260 4383.000 1.000
26.320 5747.000 1.000
26.380 8182.000 1.000
26.440 10715.000 1.000
26.500 10794.000 1.000
26.560 7852.000 1.000
26.620 4492.000 1.000
26.680 2535.000 1.000
26.740 1805.000 1.000
26.800 1475.000 1.000
26.860 1212.000 1.000
26.920 1095.000 1.000
26.980 1014.000 1.000
27.040 870.000 1.000
27.100 812.000 1.000
27.160 729.000 1.000
27.220 705.000 1.000
27.280 615.000 1.000
27.340 618.000 1.000
27.400 596.000 1.000
27.460 561.000 1.000
27.520 499.000 1.000
27.580 488.000 1.000
27.640 494.000 1.000
27.700 461.000 1.000
27.760 459.000 1.000
27.820 483.000 1.000
27.880 432.000 1.000
27.940 405.000 1.000
28.000 420.000 1.000
28.060 388.000 1.000
28.120 412.000 1.000
28.180 372.000 1.000
28.240 412.000 1.000
28.300 345.000 1.000
28.360 391.000 1.000
28.420 374.000 1.000
28.480 367.000 1.000
28.540 365.000 1.000
28.600 357.000 1.000
28.660 355.000 1.000
28.720 342.000 1.000
28.780 303.000 1.000
28.840 335.000 1.000
28.900 331.000 1.000
28.960 333.000 1.000
29.020 329.000 1.000
29.080 292.000 1.000
29.140 322.000 1.000
29.200 338.000 1.000
29.260 289.000 1.000
29.320 320.000 1.000
29.380 359.000 1.000
29.440 367.000 1.000
29.500 395.000 1.000
29.560 442.000 1.000
29.620 485.000 1.000
29.680 424.000 1.000
29.740 353.000 1.000
29.800 351.000 1.000
29.860 321.000 1.000
29.920 277.000 1.000
29.980 279.000 1.000
30.040 282.000 1.000
30.100 293.000 1.000
30.160 285.000 1.000
30.220 294.000 1.000
30.280 285.000 1.000
30.340 259.000 1.000
30.400 254.000 1.000
30.460 276.000 1.000
30.520 263.000 1.000
30.580 265.000 1.000
30.640 260.000 1.000
30.700 266.000 1.000
30.760 253.000 1.000
30.820 247.000 1.000
30.880 272.000 1.000
30.940 275.000 1.000
31.000 253.000 1.000
31.060 249.000 1.000
31.120 278.000 1.000
31.180 252.000 1.000
31.240 276.000 1.000
31.300 239.000 1.000
31.360 243.000 1.000
31.420 259.000 1.000
31.480 266.000 1.000
31.540 253.000 1.000
31.600 245.000 1.000
31.660 273.000 1.000
31.720 269.000 1.000
31.780 298.000 1.000
31.840 382.000 1.000
31.900 424.000 1.000
31.960 405.000 1.000
32.020 308.000 1.000
32.080 276.000 1.000
32.140 263.000 1.000
32.200 253.000 1.000
32.260 256.000 1.000
32.320 267.000 1.000
32.380 249.000 1.000
32.440 230.000 1.000
32.500 245.000 1.000
32.560 226.000 1.000
32.620 250.000 1.000
32.680 262.000 1.000
32.740 236.000 1.000
32.800 250.000 1.000
32.860 238.000 1.000
32.920 242.000 1.000
32.980 248.000 1.000
33.040 248.000 1.000
33.100 219.000 1.000
33.160 234.000 1.000
33.220 257.000 1.000
33.280 251.000 1.000
33.340 274.000 1.000
33.400 248.000 1.000
33.460 252.000 1.000
33.520 227.000 1.000
33.580 258.000 1.000
33.640 224.000 1.000
33.700 243.000 1.000
33.760 264.000 1.000
33.820 250.000 1.000
33.880 251.000 1.000
33.940 286.000 1.000
34.000 309.000 1.000
34.060 335.000 1.000
34.120 313.000 1.000
34.180 277.000 1.000
34.240 256.000 1.000
34.300 237.000 1.000
34.360 249.000 1.000
34.420 255.000 1.000
34.480 255.000 1.000
34.540 222.000 1.000
34.600 249.000 1.000
34.660 247.000 1.000
34.720 234.000 1.000
34.780 250.000 1.000
34.840 241.000 1.000
34.900 241.000 1.000
34.960 241.000 1.000
35.020 244.000 1.000
35.080 267.000 1.000
35.140 264.000 1.000
35.200 250.000 1.000
35.260 242.000 1.000
35.320 264.000 1.000
35.380 286.000 1.000
35.440 276.000 1.000
35.500 274.000 1.000
35.560 260.000 1.000
35.620 250.000 1.000
35.680 278.000 1.000
35.740 290.000 1.000
35.800 280.000 1.000
35.860 277.000 1.000
35.920 302.000 1.000
35.980 337.000 1.000
36.040 357.000 1.000
36.100 397.000 1.000
36.160 496.000 1.000
36.220 660.000 1.000
36.280 980.000 1.000
36.340 1490.000 1.000
36.400 2121.000 1.000
36.460 2398.000 1.000
36.520 2163.000 1.000
36.580 1530.000 1.000
36.640 969.000 1.000
36.700 652.000 1.000
36.760 484.000 1.000
36.820 385.000 1.000
36.880 356.000 1.000
36.940 313.000 1.000
37.000 301.000 1.000
37.060 270.000 1.000
37.120 275.000 1.000
37.180 276.000 1.000
37.240 239.000 1.000
37.300 255.000 1.000
37.360 249.000 1.000
37.420 244.000 1.000
37.480 240.000 1.000
37.540 265.000 1.000
37.600 245.000 1.000
37.660 239.000 1.000
37.720 227.000 1.000
37.780 261.000 1.000
37.840 269.000 1.000
37.900 270.000 1.000
37.960 262.000 1.000
38.020 260.000 1.000
38.080 234.000 1.000
38.140 219.000 1.000
38.200 226.000 1.000
38.260 260.000 1.000
38.320 246.000 1.000
38.380 223.000 1.000
38.440 229.000 1.000
38.500 218.000 1.000
38.560 231.000 1.000
38.620 237.000 1.000
38.680 241.000 1.000
38.740 233.000 1.000
38.800 219.000 1.000
38.860 259.000 1.000
38.920 248.000 1.000
38.980 214.000 1.000
39.040 230.000 1.000
39.100 234.000 1.000
39.160 228.000 1.000
39.220 243.000 1.000
39.280 214.000 1.000
39.340 228.000 1.000
39.400 249.000 1.000
39.460 236.000 1.000
39.520 240.000 1.000
39.580 226.000 1.000
39.640 236.000 1.000
39.700 243.000 1.000
39.760 228.000 1.000
39.820 214.000 1.000
39.880 221.000 1.000
39.940 236.000 1.000
40.000 251.000 1.000
40.060 216.000 1.000
40.120 224.000 1.000
40.180 215.000 1.000
40.240 239.000 1.000
40.300 250.000 1.000
40.360 255.000 1.000
40.420 237.000 1.000
40.480 246.000 1.000
40.540 238.000 1.000
40.600 233.000 1.000
40.660 225.000 1.000
40.720 245.000 1.000
40.780 208.000 1.000
40.840 222.000 1.000
40.900 220.000 1.000
40.960 266.000 1.000
41.020 265.000 1.000
41.080 260.000 1.000
41.140 232.000 1.000
41.200 229.000 1.000
41.260 259.000 1.000
41.320 254.000 1.000
41.380 237.000 1.000
41.440 213.000 1.000
41.500 235.000 1.000
41.560 255.000 1.000
41.620 241.000 1.000
41.680 234.000 1.000
41.740 293.000 1.000
41.800 298.000 1.000
41.860 284.000 1.000
41.920 292.000 1.000
41.980 309.000 1.000
42.040 360.000 1.000
42.100 411.000 1.000
42.160 452.000 1.000
42.220 602.000 1.000
42.280 700.000 1.000
42.340 779.000 1.000
42.400 756.000 1.000
42.460 673.000 1.000
42.520 577.000 1.000
42.580 447.000 1.000
42.640 381.000 1.000
42.700 348.000 1.000
42.760 345.000 1.000
42.820 312.000 1.000
42.880 301.000 1.000
42.940 319.000 1.000
43.000 331.000 1.000
43.060 343.000 1.000
43.120 318.000 1.000
43.180 347.000 1.000
43.240 393.000 1.000
43.300 425.000 1.000
43.360 406.000 1.000
43.420 385.000 1.000
43.480 384.000 1.000
43.540 363.000 1.000
43.600 303.000 1.000
43.660 296.000 1.000
43.720 291.000 1.000
43.780 290.000 1.000
43.840 283.000 1.000
43.900 287.000 1.000
43.960 267.000 1.000
44.020 264.000 1.000
44.080 268.000 1.000
44.140 270.000 1.000
44.200 253.000 1.000
44.260 265.000 1.000
44.320 254.000 1.000
44.380 255.000 1.000
44.440 263.000 1.000
44.500 213.000 1.000
44.560 248.000 1.000
44.620 264.000 1.000
44.680 258.000 1.000
44.740 247.000 1.000
44.800 252.000 1.000
44.860 257.000 1.000
44.920 239.000 1.000
44.980 254.000 1.000
45.040 209.000 1.000
45.100 248.000 1.000
45.160 232.000 1.000
45.220 236.000 1.000
45.280 240.000 1.000
45.340 244.000 1.000
45.400 240.000 1.000
45.460 219.000 1.000
45.520 234.000 1.000
45.580 233.000 1.000
45.640 213.000 1.000
45.700 247.000 1.000
45.760 216.000 1.000
45.820 223.000 1.000
45.880 241.000 1.000
45.940 221.000 1.000
46.000 224.000 1.000
46.060 214.000 1.000
46.120 216.000 1.000
46.180 249.000 1.000
46.240 242.000 1.000
46.300 211.000 1.000
46.360 226.000 1.000
46.420 223.000 1.000
46.480 205.000 1.000
46.540 214.000 1.000
46.600 200.000 1.000
46.660 195.000 1.000
46.720 247.000 1.000
46.780 215.000 1.000
46.840 190.000 1.000
46.900 228.000 1.000
46.960 212.000 1.000
47.020 202.000 1.000
47.080 217.000 1.000
47.140 216.000 1.000
47.200 221.000 1.000
47.260 202.000 1.000
47.320 215.000 1.000
47.380 225.000 1.000
47.440 210.000 1.000
47.500 228.000 1.000
47.560 213.000 1.000
47.620 198.000 1.000
47.680 208.000 1.000
47.740 201.000 1.000
47.800 222.000 1.000
47.860 198.000 1.000
47.920 232.000 1.000
47.980 200.000 1.000
48.040 214.000 1.000
48.100 200.000 1.000
48.160 232.000 1.000
48.220 206.000 1.000
48.280 231.000 1.000
48.340 216.000 1.000
48.400 209.000 1.000
48.460 235.000 1.000
48.520 214.000 1.000
48.580 207.000 1.000
48.640 215.000 1.000
48.700 210.000 1.000
48.760 215.000 1.000
48.820 232.000 1.000
48.880 191.000 1.000
48.940 211.000 1.000
49.000 211.000 1.000
49.060 229.000 1.000
49.120 205.000 1.000
49.180 196.000 1.000
49.240 205.000 1.000
49.300 209.000 1.000
49.360 206.000 1.000
49.420 210.000 1.000
49.480 204.000 1.000
49.540 202.000 1.000
49.600 223.000 1.000
49.660 229.000 1.000
49.720 208.000 1.000
49.780 221.000 1.000
49.840 199.000 1.000
49.900 216.000 1.000
49.960 207.000 1.000
50.020 200.000 1.000
50.080 226.000 1.000
50.140 228.000 1.000
50.200 224.000 1.000
50.260 227.000 1.000
50.320 233.000 1.000
50.380 272.000 1.000
50.440 238.000 1.000
50.500 245.000 1.000
50.560 245.000 1.000
50.620 224.000 1.000
50.680 217.000 1.000
50.740 229.000 1.000
50.800 234.000 1.000
50.860 193.000 1.000
50.920 212.000 1.000
50.980 232.000 1.000
51.040 209.000 1.000
51.100 209.000 1.000
51.160 182.000 1.000
51.220 230.000 1.000
51.280 212.000 1.000
51.340 213.000 1.000
51.400 206.000 1.000
51.460 197.000 1.000
51.520 208.000 1.000
51.580 216.000 1.000
51.640 208.000 1.000
51.700 204.000 1.000
51.760 208.000 1.000
51.820 206.000 1.000
51.880 227.000 1.000
51.940 208.000 1.000
52.000 211.000 1.000
52.060 225.000 1.000
52.120 210.000 1.000
52.180 192.000 1.000
52.240 220.000 1.000
52.300 222.000 1.000
52.360 226.000 1.000
52.420 218.000 1.000
52.480 228.000 1.000
52.540 264.000 1.000
52.600 252.000 1.000
52.660 261.000 1.000
52.720 218.000 1.000
52.780 245.000 1.000
52.840 248.000 1.000
52.900 254.000 1.000
52.960 252.000 1.000
53.020 241.000 1.000
53.080 242.000 1.000
53.140 266.000 1.000
53.200 245.000 1.000
53.260 253.000 1.000
53.320 244.000 1.000
53.380 240.000 1.000
53.440 244.000 1.000
53.500 241.000 1.000
53.560 246.000 1.000
53.620 225.000 1.000
53.680 263.000 1.000
53.740 246.000 1.000
53.800 250.000 1.000
53.860 265.000 1.000
53.920 266.000 1.000
53.980 249.000 1.000
54.040 269.000 1.000
54.100 270.000 1.000
54.160 306.000 1.000
54.220 321.000 1.000
54.280 316.000 1.000
54.340 347.000 1.000
54.400 406.000 1.000
54.460 428.000 1.000
54.520 462.000 1.000
54.580 439.000 1.000
54.640 378.000 1.000
54.700 376.000 1.000
54.760 287.000 1.000
54.820 260.000 1.000
54.880 238.000 1.000
54.940 218.000 1.000
55.000 221.000 1.000
55.060 213.000 1.000
55.120 200.000 1.000
55.180 181.000 1.000
55.240 198.000 1.000
55.300 185.000 1.000
55.360 190.000 1.000
55.420 189.000 1.000
55.480 191.000 1.000
55.540 180.000 1.000
55.600 194.000 1.000
55.660 171.000 1.000
55.720 180.000 1.000
55.780 186.000 1.000
55.840 176.000 1.000
55.900 195.000 1.000
55.960 184.000 1.000
56.020 175.000 1.000
56.080 189.000 1.000
56.140 190.000 1.000
56.200 184.000 1.000
56.260 191.000 1.000
56.320 180.000 1.000
56.380 189.000 1.000
56.440 168.000 1.000
56.500 164.000 1.000
56.560 208.000 1.000
56.620 192.000 1.000
56.680 167.000 1.000
56.740 169.000 1.000
56.800 208.000 1.000
56.860 179.000 1.000
56.920 171.000 1.000
56.980 195.000 1.000
57.040 186.000 1.000
57.100 183.000 1.000
57.160 170.000 1.000
57.220 168.000 1.000
57.280 173.000 1.000
57.340 191.000 1.000
57.400 174.000 1.000
57.460 172.000 1.000
57.520 184.000 1.000
57.580 174.000 1.000
57.640 190.000 1.000
57.700 173.000 1.000
57.760 168.000 1.000
57.820 184.000 1.000
57.880 177.000 1.000
57.940 173.000 1.000
58.000 149.000 1.000
58.060 173.000 1.000
58.120 167.000 1.000
58.180 157.000 1.000
58.240 171.000 1.000
58.300 178.000 1.000
58.360 175.000 1.000
58.420 170.000 1.000
58.480 163.000 1.000
58.540 173.000 1.000
58.600 171.000 1.000
58.660 156.000 1.000
58.720 180.000 1.000
58.780 166.000 1.000
58.840 170.000 1.000
58.900 155.000 1.000
58.960 172.000 1.000
59.020 158.000 1.000
59.080 189.000 1.000
59.140 170.000 1.000
59.200 178.000 1.000
59.260 187.000 1.000
59.320 168.000 1.000
59.380 196.000 1.000
59.440 172.000 1.000
59.500 170.000 1.000
59.560 182.000 1.000
59.620 168.000 1.000
59.680 171.000 1.000
59.740 161.000 1.000
59.800 176.000 1.000
59.860 170.000 1.000
59.920 153.000 1.000
59.980 170.000 1.000
60.040 151.000 1.000
60.100 179.000 1.000
60.160 149.000 1.000
60.220 177.000 1.000
60.280 174.000 1.000
60.340 167.000 1.000
60.400 169.000 1.000
60.460 183.000 1.000
60.520 176.000 1.000
60.580 181.000 1.000
60.640 167.000 1.000
60.700 198.000 1.000
60.760 176.000 1.000
60.820 195.000 1.000
60.880 204.000 1.000
60.940 203.000 1.000
61.000 210.000 1.000
61.060 224.000 1.000
61.120 251.000 1.000
61.180 283.000 1.000
61.240 332.000 1.000
61.300 399.000 1.000
61.360 432.000 1.000
61.420 471.000 1.000
61.480 418.000 1.000
61.540 433.000 1.000
61.600 351.000 1.000
61.660 336.000 1.000
61.720 273.000 1.000
61.780 227.000 1.000
61.840 224.000 1.000
61.900 197.000 1.000
61.960 185.000 1.000
62.020 177.000 1.000
62.080 174.000 1.000
62.140 188.000 1.000
62.200 167.000 1.000
62.260 172.000 1.000
62.320 170.000 1.000
62.380 172.000 1.000
62.440 173.000 1.000
62.500 166.000 1.000
62.560 157.000 1.000
62.620 154.000 1.000
62.680 162.000 1.000
62.740 176.000 1.000
62.800 157.000 1.000
62.860 150.000 1.000
62.920 154.000 1.000
62.980 167.000 1.000
63.040 172.000 1.000
63.100 185.000 1.000
63.160 134.000 1.000
63.220 172.000 1.000
63.280 172.000 1.000
63.340 155.000 1.000
63.400 164.000 1.000
63.460 153.000 1.000
63.520 152.000 1.000
63.580 140.000 1.000
63.640 160.000 1.000
63.700 150.000 1.000
63.760 144.000 1.000
63.820 164.000 1.000
63.880 161.000 1.000
63.940 155.000 1.000
64.000 151.000 1.000
64.060 171.000 1.000
64.120 161.000 1.000
64.180 157.000 1.000
64.240 176.000 1.000
64.300 142.000 1.000
64.360 170.000 1.000
64.420 164.000 1.000
64.480 145.000 1.000
64.540 169.000 1.000
64.600 149.000 1.000
64.660 168.000 1.000
64.720 164.000 1.000
64.780 152.000 1.000
64.840 150.000 1.000
64.900 170.000 1.000
64.960 143.000 1.000
65.020 148.000 1.000
65.080 141.000 1.000
65.140 147.000 1.000
65.200 164.000 1.000
65.260 169.000 1.000
65.320 183.000 1.000
65.380 143.000 1.000
65.440 163.000 1.000
65.500 147.000 1.000
65.560 144.000 1.000
65.620 155.000 1.000
65.680 173.000 1.000
65.740 139.000 1.000
65.800 141.000 1.000
65.860 160.000 1.000
65.920 148.000 1.000
65.980 144.000 1.000
66.040 171.000 1.000
66.100 148.000 1.000
66.160 149.000 1.000
66.220 142.000 1.000
66.280 162.000 1.000
66.340 149.000 1.000
66.400 133.000 1.000
66.460 151.000 1.000
66.520 141.000 1.000
66.580 158.000 1.000
66.640 150.000 1.000
66.700 178.000 1.000
66.760 154.000 1.000
66.820 149.000 1.000
66.880 156.000 1.000
66.940 144.000 1.000
67.000 153.000 1.000
67.060 162.000 1.000
67.120 167.000 1.000
67.180 137.000 1.000
67.240 163.000 1.000
67.300 157.000 1.000
67.360 145.000 1.000
67.420 150.000 1.000
67.480 151.000 1.000
67.540 151.000 1.000
67.600 150.000 1.000
67.660 145.000 1.000
67.720 134.000 1.000
67.780 157.000 1.000
67.840 129.000 1.000
67.900 159.000 1.000
67.960 160.000 1.000
68.020 153.000 1.000
68.080 143.000 1.000
68.140 147.000 1.000
68.200 156.000 1.000
68.260 156.000 1.000
68.320 150.000 1.000
68.380 133.000 1.000
68.440 162.000 1.000
68.500 149.000 1.000
68.560 137.000 1.000
68.620 144.000 1.000
68.680 120.000 1.000
68.740 138.000 1.000
68.800 156.000 1.000
68.860 140.000 1.000
68.920 179.000 1.000
68.980 161.000 1.000
69.040 143.000 1.000
69.100 158.000 1.000
69.160 142.000 1.000
69.220 156.000 1.000
69.280 165.000 1.000
69.340 136.000 1.000
69.400 156.000 1.000
69.460 143.000 1.000
69.520 156.000 1.000
69.580 139.000 1.000
69.640 136.000 1.000
69.700 150.000 1.000
69.760 153.000 1.000
69.820 132.000 1.000
69.880 142.000 1.000
69.940 157.000 1.000
70.000 158.000 1.000
70.060 152.000 1.000
70.120 140.000 1.000
70.180 153.000 1.000
70.240 144.000 1.000
70.300 153.000 1.000
70.360 155.000 1.000
70.420 165.000 1.000
70.480 170.000 1.000
70.540 141.000 1.000
70.600 140.000 1.000
70.660 145.000 1.000
70.720 157.000 1.000
70.780 142.000 1.000
70.840 162.000 1.000
70.900 134.000 1.000
70.960 150.000 1.000
71.020 139.000 1.000
71.080 128.000 1.000
71.140 140.000 1.000
71.200 140.000 1.000
71.260 135.000 1.000
71.320 131.000 1.000
71.380 152.000 1.000
71.440 140.000 1.000
71.500 151.000 1.000
71.560 166.000 1.000
71.620 138.000 1.000
71.680 134.000 1.000
71.740 150.000 1.000
71.800 151.000 1.000
71.860 151.000 1.000
71.920 122.000 1.000
71.980 147.000 1.000
72.040 154.000 1.000
72.100 147.000 1.000
72.160 168.000 1.000
72.220 169.000 1.000
72.280 165.000 1.000
72.340 155.000 1.000
72.400 150.000 1.000
72.460 154.000 1.000
72.520 152.000 1.000
72.580 175.000 1.000
72.640 163.000 1.000
72.700 145.000 1.000
72.760 162.000 1.000
72.820 156.000 1.000
72.880 171.000 1.000
72.940 171.000 1.000
73.000 159.000 1.000
73.060 177.000 1.000
73.120 183.000 1.000
73.180 177.000 1.000
73.240 197.000 1.000
73.300 228.000 1.000
73.360 225.000 1.000
73.420 261.000 1.000
73.480 280.000 1.000
73.540 316.000 1.000
73.600 287.000 1.000
73.660 278.000 1.000
73.720 263.000 1.000
73.780 255.000 1.000
73.840 239.000 1.000
73.900 214.000 1.000
73.960 191.000 1.000
74.020 217.000 1.000
74.080 170.000 1.000
74.140 202.000 1.000
74.200 186.000 1.000
74.260 168.000 1.000
74.320 179.000 1.000
74.380 161.000 1.000
74.440 167.000 1.000
74.500 158.000 1.000
74.560 148.000 1.000
74.620 160.000 1.000
74.680 147.000 1.000
74.740 158.000 1.000
74.800 160.000 1.000
74.860 132.000 1.000
74.920 150.000 1.000
74.980 137.000 1.000
75.040 164.000 1.000
75.100 144.000 1.000
75.160 150.000 1.000
75.220 141.000 1.000
75.280 145.000 1.000
75.340 138.000 1.000
75.400 158.000 1.000
75.460 153.000 1.000
75.520 136.000 1.000
75.580 141.000 1.000
75.640 150.000 1.000
75.700 134.000 1.000
75.760 152.000 1.000
75.820 159.000 1.000
75.880 136.000 1.000
75.940 126.000 1.000
76.000 144.000 1.000
76.060 135.000 1.000
76.120 150.000 1.000
76.180 141.000 1.000
76.240 135.000 1.000
76.300 138.000 1.000
76.360 143.000 1.000
76.420 144.000 1.000
76.480 166.000 1.000
76.540 151.000 1.000
76.600 130.000 1.000
76.660 145.000 1.000
76.720 169.000 1.000
76.780 173.000 1.000
76.840 151.000 1.000
76.900 160.000 1.000
76.960 140.000 1.000
77.020 155.000 1.000
77.080 159.000 1.000
77.140 166.000 1.000
77.200 171.000 1.000
77.260 155.000 1.000
77.320 169.000 1.000
77.380 169.000 1.000
77.440 184.000 1.000
77.500 182.000 1.000
77.560 152.000 1.000
77.620 173.000 1.000
77.680 175.000 1.000
77.740 163.000 1.000
77.800 167.000 1.000
77.860 159.000 1.000
77.920 141.000 1.000
77.980 130.000 1.000
78.040 141.000 1.000
78.100 140.000 1.000
78.160 136.000 1.000
78.220 140.000 1.000
78.280 153.000 1.000
78.340 155.000 1.000
78.400 162.000 1.000
78.460 142.000 1.000
78.520 144.000 1.000
78.580 151.000 1.000
78.640 153.000 1.000
78.700 152.000 1.000
78.760 146.000 1.000
78.820 152.000 1.000
78.880 146.000 1.000
78.940 165.000 1.000
79.000 147.000 1.000
79.060 142.000 1.000
79.120 152.000 1.000
79.180 169.000 1.000
79.240 136.000 1.000
79.300 146.000 1.000
79.360 154.000 1.000
79.420 149.000 1.000
79.480 138.000 1.000
79.540 137.000 1.000
79.600 140.000 1.000
79.660 143.000 1.000
79.720 133.000 1.000
79.780 143.000 1.000
79.840 137.000 1.000
79.900 142.000 1.000
79.960 121.000 1.000
80.020 138.000 1.000
80.080 137.000 1.000
80.140 157.000 1.000
80.200 133.000 1.000
80.260 140.000 1.000
80.320 149.000 1.000
80.380 148.000 1.000
80.440 139.000 1.000
80.500 162.000 1.000
80.560 149.000 1.000
80.620 144.000 1.000
80.680 122.000 1.000
80.740 143.000 1.000
80.800 126.000 1.000
80.860 141.000 1.000
80.920 136.000 1.000
80.980 145.000 1.000
81.040 127.000 1.000
81.100 142.000 1.000
81.160 144.000 1.000
81.220 138.000 1.000
81.280 121.000 1.000
81.340 134.000 1.000
81.400 142.000 1.000
81.460 143.000 1.000
81.520 132.000 1.000
81.580 137.000 1.000
81.640 121.000 1.000
81.700 128.000 1.000
81.760 139.000 1.000
81.820 140.000 1.000
81.880 139.000 1.000
81.940 134.000 1.000
82.000 140.000 1.000
82.060 151.000 1.000
82.120 147.000 1.000
82.180 137.000 1.000
82.240 142.000 1.000
82.300 137.000 1.000
82.360 135.000 1.000
82.420 128.000 1.000
82.480 143.000 1.000
82.540 140.000 1.000
82.600 162.000 1.000
82.660 141.000 1.000
82.720 152.000 1.000
82.780 127.000 1.000
82.840 112.000 1.000
82.900 138.000 1.000
82.960 139.000 1.000
83.020 145.000 1.000
83.080 142.000 1.000
83.140 138.000 1.000
83.200 137.000 1.000
83.260 137.000 1.000
83.320 133.000 1.000
83.380 132.000 1.000
83.440 135.000 1.000
83.500 134.000 1.000
83.560 136.000 1.000
83.620 145.000 1.000
83.680 127.000 1.000
83.740 129.000 1.000
83.800 147.000 1.000
83.860 132.000 1.000
83.920 152.000 1.000
83.980 161.000 1.000
84.040 149.000 1.000
84.100 134.000 1.000
84.160 146.000 1.000
84.220 145.000 1.000
84.280 129.000 1.000
84.340 127.000 1.000
84.400 132.000 1.000
84.460 143.000 1.000
84.520 140.000 1.000
84.580 147.000 1.000
84.640 135.000 1.000
84.700 129.000 1.000
84.760 140.000 1.000
84.820 148.000 1.000
84.880 148.000 1.000
84.940 146.000 1.000
85.000 128.000 1.000
85.060 140.000 1.000
85.120 156.000 1.000
85.180 137.000 1.000
85.240 118.000 1.000
85.300 147.000 1.000
85.360 160.000 1.000
85.420 134.000 1.000
85.480 146.000 1.000
85.540 136.000 1.000
85.600 140.000 1.000
85.660 146.000 1.000
85.720 138.000 1.000
85.780 143.000 1.000
85.840 124.000 1.000
85.900 141.000 1.000
85.960 155.000 1.000
86.020 125.000 1.000
86.080 150.000 1.000
86.140 154.000 1.000
86.200 145.000 1.000
86.260 128.000 1.000
86.320 141.000 1.000
86.380 144.000 1.000
86.440 140.000 1.000
86.500 162.000 1.000
86.560 141.000 1.000
86.620 146.000 1.000
86.680 145.000 1.000
86.740 163.000 1.000
86.800 151.000 1.000
86.860 172.000 1.000
86.920 125.000 1.000
86.980 149.000 1.000
87.040 139.000 1.000
87.100 137.000 1.000
87.160 164.000 1.000
87.220 146.000 1.000
87.280 151.000 1.000
87.340 156.000 1.000
87.400 132.000 1.000
87.460 137.000 1.000
87.520 133.000 1.000
87.580 128.000 1.000
87.640 130.000 1.000
87.700 128.000 1.000
87.760 129.000 1.000
87.820 135.000 1.000
87.880 130.000 1.000
87.940 97.000 1.000
88.000 110.000 1.000
88.060 126.000 1.000
88.120 119.000 1.000
88.180 139.000 1.000
88.240 143.000 1.000
88.300 111.000 1.000
88.360 122.000 1.000
88.420 123.000 1.000
88.480 132.000 1.000
88.540 148.000 1.000
88.600 143.000 1.000
88.660 119.000 1.000
88.720 150.000 1.000
88.780 114.000 1.000
88.840 132.000 1.000
88.900 123.000 1.000
88.960 146.000 1.000
89.020 123.000 1.000
89.080 112.000 1.000
89.140 124.000 1.000
89.200 139.000 1.000
89.260 119.000 1.000
89.320 135.000 1.000
89.380 113.000 1.000
89.440 139.000 1.000
89.500 140.000 1.000
89.560 118.000 1.000
89.620 136.000 1.000
89.680 129.000 1.000
89.740 136.000 1.000
89.800 139.000 1.000
89.860 136.000 1.000
89.920 131.000 1.000
89.980 149.000 1.000
90.000 139.000 1.000